Folder: STF_Stability/Ex Situ XRD (part 2)

File: STF5 Pristine.txt
         ID:

    Comment:

Scan Type: Normal
Start Angle: 15 deg.
Stop Angle: 90 deg.
Num Points: 3751
Step Size: 0.02 deg.
Datafile Res: 1600
Scan Rate: 1.000000
Scan Mode: Continuous
Wavelength: 1.540562

Diffractometer Optics:
		Detector:
			 Type: Fixed Slits
			 X2 Configuration: No
		Tube:
			 Type: Fixed Slits
			 X2 Configuration: No

Axis[0]
	 Selected   : no
	 Iterative  : no
	 Start Angle: 0.000000
	 Stop Angle : 0.000000
	 Step Size  : 0.000000
	 Oscillating: no

Axis[1]
	 Selected   : no
	 Iterative  : no
	 Start Angle: 0.000000
	 Stop Angle : 0.000000
	 Step Size  : 0.000000
	 Oscillating: no

Axis[2]
	 Selected   : no
	 Iterative  : no
	 Start Angle: 0.000000
	 Stop Angle : 0.000000
	 Step Size  : 0.000000
	 Oscillating: no

Axis[3]
	 Selected   : no
	 Iterative  : no
	 Start Angle: 0.000000
	 Stop Angle : 0.000000
	 Step Size  : 0.000000
	 Oscillating: no

Axis[4]
	 Selected   : no
	 Iterative  : no
	 Start Angle: 0.000000
	 Stop Angle : 0.000000
	 Step Size  : 0.000000
	 Oscillating: no

Axis[5]
	 Selected   : no
	 Iterative  : no
	 Start Angle: 0.000000
	 Stop Angle : 0.000000
	 Step Size  : 0.000000
	 Oscillating: no

Axis[6]
	 Selected   : no
	 Iterative  : no
	 Start Angle: 0.000000
	 Stop Angle : 0.000000
	 Step Size  : 0.000000
	 Oscillating: no

Axis[7]
	 Selected   : no
	 Iterative  : no
	 Start Angle: 0.000000
	 Stop Angle : 0.000000
	 Step Size  : 0.000000
	 Oscillating: no

Axis[8]
	 Selected   : no
	 Iterative  : no
	 Start Angle: 0.000000
	 Stop Angle : 0.000000
	 Step Size  : 0.000000
	 Oscillating: no

Axis[9]
	 Selected   : no
	 Iterative  : no
	 Start Angle: 0.000000
	 Stop Angle : 0.000000
	 Step Size  : 0.000000
	 Oscillating: no

	   Deg.    Counts 	   Time 	    ESD

Range 0
  15.000	       123	    1200	    11.091
  15.320	       109	    1200	    10.440
  15.640	       116	    1200	    10.770
  15.960	       131	    1200	    11.446
  16.280	       104	    1200	    10.198
  16.600	       116	    1200	    10.770
  16.920	       116	    1200	    10.770
  17.240	       113	    1200	    10.630
  17.560	       115	    1200	    10.724
  17.880	       128	    1200	    11.314
  18.200	        95	    1200	     9.747
  18.520	        98	    1200	     9.899
  18.840	       114	    1200	    10.677
  19.160	       110	    1200	    10.488
  19.480	       115	    1200	    10.724
  19.800	       108	    1200	    10.392
  20.120	       110	    1200	    10.488
  20.440	       109	    1200	    10.440
  20.760	       104	    1200	    10.198
  21.080	       110	    1200	    10.488
  21.400	       103	    1200	    10.149
  21.720	       101	    1200	    10.050
  22.040	       125	    1200	    11.180
  22.360	       111	    1200	    10.536
  22.680	       177	    1200	    13.304
  23.000	       108	    1200	    10.392
  23.320	       120	    1200	    10.954
  23.640	       100	    1200	    10.000
  23.960	       102	    1200	    10.100
  24.280	        94	    1200	     9.695
  24.600	       106	    1200	    10.296
  24.920	       102	    1200	    10.100
  25.240	       102	    1200	    10.100
  25.560	       102	    1200	    10.100
  25.880	        93	    1200	     9.644
  26.200	        80	    1200	     8.944
  26.520	        75	    1200	     8.660
  26.840	        76	    1200	     8.718
  27.160	        75	    1200	     8.660
  27.480	        81	    1200	     9.000
  27.800	        79	    1200	     8.888
  28.120	        66	    1200	     8.124
  28.440	        72	    1200	     8.485
  28.760	        60	    1200	     7.746
  29.080	        71	    1200	     8.426
  29.400	        77	    1200	     8.775
  29.720	        74	    1200	     8.602
  30.040	        79	    1200	     8.888
  30.360	        83	    1200	     9.110
  30.680	       100	    1200	    10.000
  31.000	        82	    1200	     9.055
  31.320	        91	    1200	     9.539
  31.640	       128	    1200	    11.314
  31.960	       318	    1200	    17.833
  32.280	      2438	    1200	    49.376
  32.600	      1029	    1200	    32.078
  32.920	       159	    1200	    12.610
  33.240	        93	    1200	     9.644
  33.560	        88	    1200	     9.381
  33.880	        81	    1200	     9.000
  34.200	        75	    1200	     8.660
  34.520	        70	    1200	     8.367
  34.840	        70	    1200	     8.367
  35.160	        60	    1200	     7.746
  35.480	        64	    1200	     8.000
  35.800	        49	    1200	     7.000
  36.120	        49	    1200	     7.000
  36.440	        53	    1200	     7.280
  36.760	        40	    1200	     6.325
  37.080	        57	    1200	     7.550
  37.400	        51	    1200	     7.141
  37.720	        49	    1200	     7.000
  38.040	        37	    1200	     6.083
  38.360	        52	    1200	     7.211
  38.680	        42	    1200	     6.481
  39.000	        45	    1200	     6.708
  39.320	        56	    1200	     7.483
  39.640	       190	    1200	    13.784
  39.960	       406	    1200	    20.149
  40.280	       151	    1200	    12.288
  40.600	        47	    1200	     6.856
  40.920	        47	    1200	     6.856
  41.240	        37	    1200	     6.083
  41.560	        46	    1200	     6.782
  41.880	        30	    1200	     5.477
  42.200	        37	    1200	     6.083
  42.520	        52	    1200	     7.211
  42.840	        58	    1200	     7.616
  43.160	        51	    1200	     7.141
  43.480	        41	    1200	     6.403
  43.800	        42	    1200	     6.481
  44.120	        46	    1200	     6.782
  44.440	        44	    1200	     6.633
  44.760	        48	    1200	     6.928
  45.080	        53	    1200	     7.280
  45.400	        46	    1200	     6.782
  45.720	        77	    1200	     8.775
  46.040	       160	    1200	    12.649
  46.360	       784	    1200	    28.000
  46.680	       754	    1200	    27.459
  47.000	       139	    1200	    11.790
  47.320	        64	    1200	     8.000
  47.640	        48	    1200	     6.928
  47.960	        44	    1200	     6.633
  48.280	        45	    1200	     6.708
  48.600	        42	    1200	     6.481
  48.920	        26	    1200	     5.099
  49.240	        36	    1200	     6.000
  49.560	        34	    1200	     5.831
  49.880	        33	    1200	     5.745
  50.200	        40	    1200	     6.325
  50.520	        38	    1200	     6.164
  50.840	        31	    1200	     5.568
  51.160	        58	    1200	     7.616
  51.480	        33	    1200	     5.745
  51.800	        54	    1200	     7.348
  52.120	        70	    1200	     8.367
  52.440	        69	    1200	     8.307
  52.760	        44	    1200	     6.633
  53.080	        35	    1200	     5.916
  53.400	        41	    1200	     6.403
  53.720	        33	    1200	     5.745
  54.040	        28	    1200	     5.292
  54.360	        39	    1200	     6.245
  54.680	        51	    1200	     7.141
  55.000	        45	    1200	     6.708
  55.320	        40	    1200	     6.325
  55.640	        31	    1200	     5.568
  55.960	        34	    1200	     5.831
  56.280	        39	    1200	     6.245
  56.600	        41	    1200	     6.403
  56.920	        57	    1200	     7.550
  57.240	        96	    1200	     9.798
  57.560	       425	    1200	    20.616
  57.880	       586	    1200	    24.207
  58.200	       474	    1200	    21.772
  58.520	       104	    1200	    10.198
  58.840	        62	    1200	     7.874
  59.160	        52	    1200	     7.211
[...]
  61.400	        38	    1200	     6.164
  61.720	        42	    1200	     6.481
  62.040	        38	    1200	     6.164
  62.360	        36	    1200	     6.000
  62.680	        30	    1200	     5.477
  63.000	        43	    1200	     6.557
  63.320	        41	    1200	     6.403
  63.640	        44	    1200	     6.633
  63.960	        30	    1200	     5.477
  64.280	        34	    1200	     5.831
  64.600	        37	    1200	     6.083
  64.920	        34	    1200	     5.831
  65.240	        27	    1200	     5.196
  65.560	        40	    1200	     6.325
  65.880	        36	    1200	     6.000
  66.200	        35	    1200	     5.916
  66.520	        40	    1200	     6.325
  66.840	        46	    1200	     6.782
  67.160	        53	    1200	     7.280
  67.480	       135	    1200	    11.619
  67.800	       276	    1200	    16.613
  68.120	       345	    1200	    18.574
  68.440	       176	    1200	    13.266
  68.760	        55	    1200	     7.416
  69.080	        40	    1200	     6.325
  69.400	        38	    1200	     6.164
  69.720	        32	    1200	     5.657
  70.040	        34	    1200	     5.831
  70.360	        30	    1200	     5.477
  70.680	        46	    1200	     6.782
  71.000	        39	    1200	     6.245
  71.320	        41	    1200	     6.403
  71.640	        33	    1200	     5.745
  71.960	        38	    1200	     6.164
  72.280	        58	    1200	     7.616
  72.600	        57	    1200	     7.550
  72.920	        47	    1200	     6.856
  73.240	        41	    1200	     6.403
  73.560	        43	    1200	     6.557
  73.880	        30	    1200	     5.477
  74.200	        36	    1200	     6.000
  74.520	        35	    1200	     5.916
  74.840	        32	    1200	     5.657
  75.160	        41	    1200	     6.403
  75.480	        34	    1200	     5.831
  75.800	        30	    1200	     5.477
  76.120	        35	    1200	     5.916
  76.440	        43	    1200	     6.557
  76.760	        62	    1200	     7.874
  77.080	       163	    1200	    12.767
  77.400	       187	    1200	    13.675
  77.720	       191	    1200	    13.820
  78.040	       104	    1200	    10.198
  78.360	        54	    1200	     7.348
  78.680	        42	    1200	     6.481
  79.000	        38	    1200	     6.164
  79.320	        33	    1200	     5.745
  79.640	        24	    1200	     4.899
  79.960	        37	    1200	     6.083
  80.280	        37	    1200	     6.083
  80.600	        33	    1200	     5.745
  80.920	        37	    1200	     6.083
  81.240	        36	    1200	     6.000
  81.560	        76	    1200	     8.718
  81.880	        75	    1200	     8.660
  82.200	        81	    1200	     9.000
  82.520	        42	    1200	     6.481
  82.840	        35	    1200	     5.916
  83.160	        28	    1200	     5.292
  83.480	        26	    1200	     5.099
  83.800	        45	    1200	     6.708
  84.120	        38	    1200	     6.164
  84.440	        29	    1200	     5.385
  84.760	        28	    1200	     5.292
  85.080	        30	    1200	     5.477
  85.400	        29	    1200	     5.385
  85.720	        38	    1200	     6.164
  86.040	        70	    1200	     8.367
  86.360	        70	    1200	     8.367
  86.680	        85	    1200	     9.220
  87.000	        85	    1200	     9.220
  87.320	        53	    1200	     7.280
  87.640	        27	    1200	     5.196
  87.960	        30	    1200	     5.477
  88.280	        20	    1200	     4.472
  88.600	        29	    1200	     5.385
  88.920	        29	    1200	     5.385
  89.240	        27	    1200	     5.196
  89.560	        27	    1200	     5.196
  89.880	        31	    1200	     5.568
  90.000	        43	    1200	     6.557

File: STF6 850C 91H2 4Hr.txt
         ID:

    Comment:

Scan Type: Normal
Start Angle: 15 deg.
Stop Angle: 90 deg.
Num Points: 3751
Step Size: 0.02 deg.
Datafile Res: 1600
Scan Rate: 1.000000
Scan Mode: Continuous
Wavelength: 1.540562

Diffractometer Optics:
		Detector:
			 Type: Fixed Slits
			 X2 Configuration: No
		Tube:
			 Type: Fixed Slits
			 X2 Configuration: No

Axis[0]
	 Selected   : no
	 Iterative  : no
	 Start Angle: 0.000000
	 Stop Angle : 0.000000
	 Step Size  : 0.000000
	 Oscillating: no

Axis[1]
	 Selected   : no
	 Iterative  : no
	 Start Angle: 0.000000
	 Stop Angle : 0.000000
	 Step Size  : 0.000000
	 Oscillating: no

Axis[2]
	 Selected   : no
	 Iterative  : no
	 Start Angle: 0.000000
	 Stop Angle : 0.000000
	 Step Size  : 0.000000
	 Oscillating: no

Axis[3]
	 Selected   : no
	 Iterative  : no
	 Start Angle: 0.000000
	 Stop Angle : 0.000000
	 Step Size  : 0.000000
	 Oscillating: no

Axis[4]
	 Selected   : no
	 Iterative  : no
	 Start Angle: 0.000000
	 Stop Angle : 0.000000
	 Step Size  : 0.000000
	 Oscillating: no

Axis[5]
	 Selected   : no
	 Iterative  : no
	 Start Angle: 0.000000
	 Stop Angle : 0.000000
	 Step Size  : 0.000000
	 Oscillating: no

Axis[6]
	 Selected   : no
	 Iterative  : no
	 Start Angle: 0.000000
	 Stop Angle : 0.000000
	 Step Size  : 0.000000
	 Oscillating: no

Axis[7]
	 Selected   : no
	 Iterative  : no
	 Start Angle: 0.000000
	 Stop Angle : 0.000000
	 Step Size  : 0.000000
	 Oscillating: no

Axis[8]
	 Selected   : no
	 Iterative  : no
	 Start Angle: 0.000000
	 Stop Angle : 0.000000
	 Step Size  : 0.000000
	 Oscillating: no

Axis[9]
	 Selected   : no
	 Iterative  : no
	 Start Angle: 0.000000
	 Stop Angle : 0.000000
	 Step Size  : 0.000000
	 Oscillating: no

	   Deg.    Counts 	   Time 	    ESD

Range 0
  15.000	       136	    1200	    11.662
  15.320	       107	    1200	    10.344
  15.640	       114	    1200	    10.677
  15.960	       105	    1200	    10.247
  16.280	       127	    1200	    11.269
  16.600	       126	    1200	    11.225
  16.920	       106	    1200	    10.296
  17.240	        97	    1200	     9.849
  17.560	       110	    1200	    10.488
  17.880	       119	    1200	    10.909
  18.200	       136	    1200	    11.662
  18.520	       125	    1200	    11.180
  18.840	       110	    1200	    10.488
  19.160	       117	    1200	    10.817
  19.480	       113	    1200	    10.630
  19.800	       117	    1200	    10.817
  20.120	       115	    1200	    10.724
  20.440	       106	    1200	    10.296
  20.760	       123	    1200	    11.091
  21.080	       124	    1200	    11.136
  21.400	        90	    1200	     9.487
  21.720	        85	    1200	     9.220
  22.040	       112	    1200	    10.583
  22.360	       116	    1200	    10.770
  22.680	       117	    1200	    10.817
  23.000	       107	    1200	    10.344
  23.320	        87	    1200	     9.327
  23.640	       106	    1200	    10.296
  23.960	        94	    1200	     9.695
  24.280	        91	    1200	     9.539
  24.600	       100	    1200	    10.000
  24.920	        82	    1200	     9.055
  25.240	        84	    1200	     9.165
  25.560	        85	    1200	     9.220
  25.880	        74	    1200	     8.602
  26.200	        60	    1200	     7.746
  26.520	        62	    1200	     7.874
  26.840	        64	    1200	     8.000
  27.160	        49	    1200	     7.000
  27.480	        57	    1200	     7.550
  27.800	        57	    1200	     7.550
  28.120	        54	    1200	     7.348
  28.440	        61	    1200	     7.810
  28.760	        37	    1200	     6.083
  29.080	        48	    1200	     6.928
  29.400	        31	    1200	     5.568
  29.720	        44	    1200	     6.633
  30.040	        44	    1200	     6.633
  30.360	        39	    1200	     6.245
  30.680	        31	    1200	     5.568
  31.000	        44	    1200	     6.633
  31.320	        56	    1200	     7.483
  31.640	        96	    1200	     9.798
  31.960	       439	    1200	    20.952
  32.280	      1605	    1200	    40.062
  32.600	        89	    1200	     9.434
  32.920	        55	    1200	     7.416
  33.240	        46	    1200	     6.782
  33.560	        35	    1200	     5.916
  33.880	        33	    1200	     5.745
  34.200	        28	    1200	     5.292
  34.520	        33	    1200	     5.745
  34.840	        29	    1200	     5.385
  35.160	        15	    1200	     3.873
  35.480	        34	    1200	     5.831
  35.800	        22	    1200	     4.690
  36.120	        19	    1200	     4.359
  36.440	        32	    1200	     5.657
  36.760	        29	    1200	     5.385
  37.080	        26	    1200	     5.099
  37.400	        20	    1200	     4.472
  37.720	        21	    1200	     4.583
  38.040	        22	    1200	     4.690
  38.360	        19	    1200	     4.359
  38.680	        33	    1200	     5.745
  39.000	        34	    1200	     5.831
  39.320	        35	    1200	     5.916
  39.640	       215	    1200	    14.663
  39.960	       134	    1200	    11.576
  40.280	        21	    1200	     4.583
  40.600	        18	    1200	     4.243
  40.920	        20	    1200	     4.472
  41.240	        43	    1200	     6.557
  41.560	        21	    1200	     4.583
  41.880	        18	    1200	     4.243
  42.200	        16	    1200	     4.000
  42.520	        17	    1200	     4.123
  42.840	        22	    1200	     4.690
  43.160	        13	    1200	     3.606
  43.480	        17	    1200	     4.123
  43.800	        15	    1200	     3.873
  44.120	        23	    1200	     4.796
  44.440	        23	    1200	     4.796
  44.760	        22	    1200	     4.690
  45.080	        20	    1200	     4.472
  45.400	        26	    1200	     5.099
  45.720	        56	    1200	     7.483
  46.040	       246	    1200	    15.684
  46.360	       713	    1200	    26.702
  46.680	        75	    1200	     8.660
  47.000	        31	    1200	     5.568
  47.320	        25	    1200	     5.000
  47.640	        21	    1200	     4.583
  47.960	        21	    1200	     4.583
  48.280	        23	    1200	     4.796
  48.600	        19	    1200	     4.359
  48.920	        16	    1200	     4.000
  49.240	        11	    1200	     3.317
  49.560	        19	    1200	     4.359
  49.880	        11	    1200	     3.317
  50.200	        11	    1200	     3.317
  50.520	        15	    1200	     3.873
  50.840	        12	    1200	     3.464
  51.160	         9	    1200	     3.000
  51.480	        19	    1200	     4.359
  51.800	        26	    1200	     5.099
  52.120	        49	    1200	     7.000
  52.440	        21	    1200	     4.583
  52.760	        12	    1200	     3.464
  53.080	        12	    1200	     3.464
  53.400	        19	    1200	     4.359
  53.720	         9	    1200	     3.000
  54.040	        11	    1200	     3.317
  54.360	        15	    1200	     3.873
  54.680	        13	    1200	     3.606
  55.000	        15	    1200	     3.873
  55.320	        12	    1200	     3.464
  55.640	        17	    1200	     4.123
  55.960	        19	    1200	     4.359
  56.280	        13	    1200	     3.606
  56.600	        41	    1200	     6.403
  56.920	        44	    1200	     6.633
  57.240	       143	    1200	    11.958
  57.560	       860	    1200	    29.326
  57.880	       197	    1200	    14.036
  58.200	        38	    1200	     6.164
  58.520	        32	    1200	     5.657
  58.840	        17	    1200	     4.123
  59.160	        26	    1200	     5.099
[...]
  61.400	        20	    1200	     4.472
  61.720	        10	    1200	     3.162
  62.040	        17	    1200	     4.123
  62.360	        23	    1200	     4.796
  62.680	        17	    1200	     4.123
  63.000	        26	    1200	     5.099
  63.320	        19	    1200	     4.359
  63.640	        24	    1200	     4.899
  63.960	        25	    1200	     5.000
  64.280	        22	    1200	     4.690
  64.600	        16	    1200	     4.000
  64.920	        18	    1200	     4.243
  65.240	        15	    1200	     3.873
  65.560	        25	    1200	     5.000
  65.880	        21	    1200	     4.583
  66.200	        22	    1200	     4.690
  66.520	        19	    1200	     4.359
  66.840	        27	    1200	     5.196
  67.160	        66	    1200	     8.124
  67.480	       279	    1200	    16.703
  67.800	       281	    1200	    16.763
  68.120	        55	    1200	     7.416
  68.440	        32	    1200	     5.657
  68.760	        23	    1200	     4.796
  69.080	        23	    1200	     4.796
  69.400	        15	    1200	     3.873
  69.720	        22	    1200	     4.690
  70.040	        11	    1200	     3.317
  70.360	        14	    1200	     3.742
  70.680	        17	    1200	     4.123
  71.000	        18	    1200	     4.243
  71.320	        13	    1200	     3.606
  71.640	        19	    1200	     4.359
  71.960	        20	    1200	     4.472
  72.280	        39	    1200	     6.245
  72.600	        30	    1200	     5.477
  72.920	        13	    1200	     3.606
  73.240	        13	    1200	     3.606
  73.560	        13	    1200	     3.606
  73.880	        14	    1200	     3.742
  74.200	         6	    1200	     2.449
  74.520	        20	    1200	     4.472
  74.840	        13	    1200	     3.606
  75.160	        18	    1200	     4.243
  75.480	        15	    1200	     3.873
  75.800	        24	    1200	     4.899
  76.120	        26	    1200	     5.099
  76.440	        39	    1200	     6.245
  76.760	       154	    1200	    12.410
  77.080	       250	    1200	    15.811
  77.400	        83	    1200	     9.110
  77.720	        21	    1200	     4.583
  78.040	        17	    1200	     4.123
  78.360	        22	    1200	     4.690
  78.680	        16	    1200	     4.000
  79.000	        17	    1200	     4.123
  79.320	        20	    1200	     4.472
  79.640	        13	    1200	     3.606
  79.960	        21	    1200	     4.583
  80.280	        18	    1200	     4.243
  80.600	        24	    1200	     4.899
  80.920	        26	    1200	     5.099
  81.240	        42	    1200	     6.481
  81.560	        73	    1200	     8.544
  81.880	        47	    1200	     6.856
  82.200	        30	    1200	     5.477
  82.520	        20	    1200	     4.472
  82.840	        19	    1200	     4.359
  83.160	        17	    1200	     4.123
  83.480	        25	    1200	     5.000
  83.800	        16	    1200	     4.000
  84.120	        16	    1200	     4.000
  84.440	        12	    1200	     3.464
  84.760	        21	    1200	     4.583
  85.080	        16	    1200	     4.000
  85.400	        17	    1200	     4.123
  85.720	        41	    1200	     6.403
  86.040	       102	    1200	    10.100
  86.360	        49	    1200	     7.000
  86.680	        20	    1200	     4.472
  87.000	        16	    1200	     4.000
  87.320	        18	    1200	     4.243
  87.640	        17	    1200	     4.123
  87.960	        14	    1200	     3.742
  88.280	        21	    1200	     4.583
  88.600	        14	    1200	     3.742
  88.920	        19	    1200	     4.359
  89.240	        19	    1200	     4.359
  89.560	        19	    1200	     4.359
  89.880	        15	    1200	     3.873
  90.000	        19	    1200	     4.359